#K-Path(1/A) Energy-Level(eV)
# NKPTS & NBANDS:  60  24
# Band-Index    1
   0.00000    -61.051470
   0.05997    -61.051235
   0.11993    -61.050543
   0.17990    -61.049331
   0.23987    -61.047584
   0.29983    -61.045572
   0.35980    -61.043224
   0.41977    -61.040574
   0.47974    -61.037671
   0.53970    -61.034575
   0.59967    -61.031543
   0.65964    -61.028483
   0.71960    -61.025682
   0.77957    -61.023089
   0.83954    -61.020659
   0.89950    -61.018492
   0.95947    -61.016868
   1.01944    -61.015670
   1.07940    -61.014977
   1.13937    -61.014613
   1.13937    -61.014613
   1.17399    -61.014625
   1.20861    -61.014494
   1.24324    -61.014316
   1.27786    -61.014190
   1.31248    -61.013890
   1.34710    -61.013654
   1.38172    -61.013298
   1.41635    -61.012875
   1.45097    -61.012459
   1.48559    -61.012082
   1.52021    -61.011703
   1.55483    -61.011389
   1.58946    -61.011032
   1.62408    -61.010743
   1.65870    -61.010542
   1.69332    -61.010256
   1.72794    -61.010163
   1.76257    -61.010041
   1.79719    -61.010045
   1.79719    -61.010045
   1.86643    -61.010093
   1.93568    -61.010626
   2.00492    -61.011691
   2.07416    -61.013111
   2.14341    -61.015037
   2.21265    -61.017338
   2.28189    -61.020195
   2.35114    -61.023305
   2.42038    -61.026570
   2.48963    -61.030177
   2.55887    -61.033818
   2.62811    -61.037331
   2.69736    -61.040743
   2.76660    -61.043644
   2.83584    -61.046411
   2.90509    -61.048626
   2.97433    -61.050235
   3.04358    -61.051108
   3.11282    -61.051470
 
# Band-Index    2
   3.11282    -35.216446
   3.04358    -35.215900
   2.97433    -35.213884
   2.90509    -35.210745
   2.83584    -35.206147
   2.76660    -35.200686
   2.69736    -35.194725
   2.62811    -35.188115
   2.55887    -35.180991
   2.48963    -35.211459
   2.42038    -35.239613
   2.35114    -35.264845
   2.28189    -35.285087
   2.21265    -35.300088
   2.14341    -35.309736
   2.07416    -35.313243
   2.00492    -35.311474
   1.93568    -35.304448
   1.86643    -35.294612
   1.79719    -35.288500
   1.79719    -35.288500
   1.76257    -35.290456
   1.72794    -35.295802
   1.69332    -35.302578
   1.65870    -35.310161
   1.62408    -35.317691
   1.58946    -35.325251
   1.55483    -35.332570
   1.52021    -35.339467
   1.48559    -35.346001
   1.45097    -35.352035
   1.41635    -35.357779
   1.38172    -35.362739
   1.34710    -35.367084
   1.31248    -35.370540
   1.27786    -35.373671
   1.24324    -35.376080
   1.20861    -35.377690
   1.17399    -35.378747
   1.13937    -35.379094
   1.13937    -35.379094
   1.07940    -35.377067
   1.01944    -35.369496
   0.95947    -35.357707
   0.89950    -35.341028
   0.83954    -35.321190
   0.77957    -35.297740
   0.71960    -35.271199
   0.65964    -35.242392
   0.59967    -35.212622
   0.53970    -35.182695
   0.47974    -35.188958
   0.41977    -35.194950
   0.35980    -35.200154
   0.29983    -35.204302
   0.23987    -35.208276
   0.17990    -35.212168
   0.11993    -35.214603
   0.05997    -35.216147
   0.00000    -35.216446
 
# Band-Index    3
   0.00000    -35.008216
   0.05997    -35.011110
   0.11993    -35.019244
   0.17990    -35.032069
   0.23987    -35.049116
   0.29983    -35.070490
   0.35980    -35.095029
   0.41977    -35.122487
   0.47974    -35.151881
   0.53970    -35.181995
   0.59967    -35.176543
   0.65964    -35.170209
   0.71960    -35.164588
   0.77957    -35.159648
   0.83954    -35.154759
   0.89950    -35.150353
   0.95947    -35.146858
   1.01944    -35.144751
   1.07940    -35.143217
   1.13937    -35.142576
   1.13937    -35.142576
   1.17399    -35.142537
   1.20861    -35.142086
   1.24324    -35.141842
   1.27786    -35.141584
   1.31248    -35.140828
   1.34710    -35.140368
   1.38172    -35.139775
   1.41635    -35.139036
   1.45097    -35.147261
   1.48559    -35.158136
   1.52021    -35.169448
   1.55483    -35.181513
   1.58946    -35.193509
   1.62408    -35.205385
   1.65870    -35.216998
   1.69332    -35.227386
   1.72794    -35.236835
   1.76257    -35.243427
   1.79719    -35.246147
   1.79719    -35.246147
   1.86643    -35.237338
   1.93568    -35.220280
   2.00492    -35.200982
   2.07416    -35.180792
   2.14341    -35.160812
   2.21265    -35.148100
   2.28189    -35.153992
   2.35114    -35.160151
   2.42038    -35.166750
   2.48963    -35.173913
   2.55887    -35.180883
   2.62811    -35.149011
   2.69736    -35.117749
   2.76660    -35.087260
   2.83584    -35.061517
   2.90509    -35.039409
   2.97433    -35.022706
   3.04358    -35.011912
   3.11282    -35.008216
 
# Band-Index    4
   3.11282    -35.008185
   3.04358    -35.008716
   2.97433    -35.011807
   2.90509    -35.015799
   2.83584    -35.021316
   2.76660    -35.028514
   2.69736    -35.037903
   2.62811    -35.047953
   2.55887    -35.060164
   2.48963    -35.073440
   2.42038    -35.088142
   2.35114    -35.104902
   2.28189    -35.122727
   2.21265    -35.141286
   2.14341    -35.143559
   2.07416    -35.139670
   2.00492    -35.136598
   1.93568    -35.134098
   1.86643    -35.133038
   1.79719    -35.133230
   1.79719    -35.133230
   1.76257    -35.133227
   1.72794    -35.133275
   1.69332    -35.133415
   1.65870    -35.134031
   1.62408    -35.134362
   1.58946    -35.134912
   1.55483    -35.136005
   1.52021    -35.136768
   1.48559    -35.137527
   1.45097    -35.138260
   1.41635    -35.136980
   1.38172    -35.128147
   1.34710    -35.120045
   1.31248    -35.112638
   1.27786    -35.106777
   1.24324    -35.101510
   1.20861    -35.098521
   1.17399    -35.096498
   1.13937    -35.095416
   1.13937    -35.095416
   1.07940    -35.095198
   1.01944    -35.093289
   0.95947    -35.090404
   0.89950    -35.086505
   0.83954    -35.081970
   0.77957    -35.076423
   0.71960    -35.069991
   0.65964    -35.063044
   0.59967    -35.056024
   0.53970    -35.048736
   0.47974    -35.041907
   0.41977    -35.035143
   0.35980    -35.028713
   0.29983    -35.023022
   0.23987    -35.017855
   0.17990    -35.013814
   0.11993    -35.010866
   0.05997    -35.008711
   0.00000    -35.008185
 
# Band-Index    5
   0.00000    -14.292768
   0.05997    -14.282467
   0.11993    -14.251689
   0.17990    -14.200944
   0.23987    -14.130994
   0.29983    -14.042998
   0.35980    -13.938387
   0.41977    -13.818923
   0.47974    -13.686786
   0.53970    -13.544494
   0.59967    -13.395046
   0.65964    -13.241856
   0.71960    -13.088854
   0.77957    -12.940457
   0.83954    -12.801606
   0.89950    -12.677547
   0.95947    -12.573690
   1.01944    -12.495101
   1.07940    -12.446042
   1.13937    -12.429304
   1.13937    -12.429304
   1.17399    -12.427794
   1.20861    -12.423246
   1.24324    -12.415780
   1.27786    -12.405515
   1.31248    -12.392623
   1.34710    -12.377384
   1.38172    -12.360076
   1.41635    -12.341050
   1.45097    -12.320713
   1.48559    -12.299519
   1.52021    -12.277960
   1.55483    -12.256605
   1.58946    -12.235981
   1.62408    -12.216718
   1.65870    -12.199476
   1.69332    -12.184879
   1.72794    -12.173649
   1.76257    -12.166423
   1.79719    -12.163881
   1.79719    -12.163881
   1.86643    -12.175207
   1.93568    -12.211775
   2.00492    -12.276236
   2.07416    -12.369172
   2.14341    -12.489051
   2.21265    -12.632345
   2.28189    -12.794081
   2.35114    -12.968383
   2.42038    -13.149160
   2.48963    -13.330587
   2.55887    -13.507259
   2.62811    -13.674308
   2.69736    -13.827516
   2.76660    -13.963280
   2.83584    -14.078559
   2.90509    -14.170803
   2.97433    -14.238097
   3.04358    -14.279029
   3.11282    -14.292768
 
# Band-Index    6
   3.11282    -12.989424
   3.04358    -12.983798
   2.97433    -12.967028
   2.90509    -12.939445
   2.83584    -12.901614
   2.76660    -12.854379
   2.69736    -12.798751
   2.62811    -12.735959
   2.55887    -12.667444
   2.48963    -12.594898
   2.42038    -12.520154
   2.35114    -12.445261
   2.28189    -12.372361
   2.21265    -12.303769
   2.14341    -12.241799
   2.07416    -12.188595
   2.00492    -12.146009
   1.93568    -12.115366
   1.86643    -12.097290
   1.79719    -12.091506
   1.79719    -12.091506
   1.76257    -12.092854
   1.72794    -12.096769
   1.69332    -12.102970
   1.65870    -12.111160
   1.62408    -12.120988
   1.58946    -12.132107
   1.55483    -12.144200
   1.52021    -12.156854
   1.48559    -12.169735
   1.45097    -12.182501
   1.41635    -12.194832
   1.38172    -12.206445
   1.34710    -12.217062
   1.31248    -12.226446
   1.27786    -12.234415
   1.24324    -12.240774
   1.20861    -12.245416
   1.17399    -12.248242
   1.13937    -12.249188
   1.13937    -12.249188
   1.07940    -12.255368
   1.01944    -12.273582
   0.95947    -12.302978
   0.89950    -12.342240
   0.83954    -12.389763
   0.77957    -12.443608
   0.71960    -12.501816
   0.65964    -12.562482
   0.59967    -12.623804
   0.53970    -12.684043
   0.47974    -12.741731
   0.41977    -12.795533
   0.35980    -12.844298
   0.29983    -12.887083
   0.23987    -12.923117
   0.17990    -12.951800
   0.11993    -12.972601
   0.05997    -12.985206
   0.00000    -12.989424
 
# Band-Index    7
   0.00000     -5.818409
   0.05997     -5.806449
   0.11993     -5.770818
   0.17990     -5.713000
   0.23987     -5.635292
   0.29983     -5.542580
   0.35980     -5.440981
   0.41977     -5.339915
   0.47974     -5.253293
   0.53970     -5.200547
   0.59967     -5.200139
   0.65964     -5.256497
   0.71960     -5.356101
   0.77957     -5.477878
   0.83954     -5.604181
   0.89950     -5.722909
   0.95947     -5.824909
   1.01944     -5.902713
   1.07940     -5.951757
   1.13937     -5.967971
   1.13937     -5.967971
   1.17399     -5.963441
   1.20861     -5.949782
   1.24324     -5.927410
   1.27786     -5.895968
   1.31248     -5.855750
   1.34710     -5.807371
   1.38172     -5.750765
   1.41635     -5.686430
   1.45097     -5.614522
   1.48559     -5.536162
   1.52021     -5.451650
   1.55483     -5.400727
   1.58946     -5.447845
   1.62408     -5.490979
   1.65870     -5.528574
   1.69332     -5.559239
   1.72794     -5.582309
   1.76257     -5.596690
   1.79719     -5.601765
   1.79719     -5.601765
   1.86643     -5.580604
   1.93568     -5.516546
   2.00492     -5.407889
   2.07416     -5.271063
   2.14341     -5.315345
   2.21265     -5.313556
   2.28189     -5.274150
   2.35114     -5.210950
   2.42038     -5.146924
   2.48963     -5.114657
   2.55887     -5.140331
   2.62811     -5.222111
   2.69736     -5.336887
   2.76660     -5.461060
   2.83584     -5.578771
   2.90509     -5.679244
   2.97433     -5.755227
   3.04358     -5.802395
   3.11282     -5.818409
 
# Band-Index    8
   3.11282     -2.817318
   3.04358     -2.849595
   2.97433     -2.942674
   2.90509     -3.086783
   2.83584     -3.267081
   2.76660     -3.465905
   2.69736     -3.666618
   2.62811     -3.844466
   2.55887     -3.974292
   2.48963     -4.032064
   2.42038     -4.017596
   2.35114     -4.293255
   2.28189     -4.573421
   2.21265     -4.832614
   2.14341     -5.062272
   2.07416     -5.255406
   2.00492     -5.177556
   1.93568     -5.039403
   1.86643     -4.880796
   1.79719     -4.790379
   1.79719     -4.790379
   1.76257     -4.817140
   1.72794     -4.885366
   1.69332     -4.973937
   1.65870     -5.070871
   1.62408     -5.169583
   1.58946     -5.267299
   1.55483     -5.361730
   1.52021     -5.350758
   1.48559     -5.299422
   1.45097     -5.248126
   1.41635     -5.198312
   1.38172     -5.151481
   1.34710     -5.108705
   1.31248     -5.070873
   1.27786     -5.039230
   1.24324     -5.014097
   1.20861     -4.996045
   1.17399     -4.985081
   1.13937     -4.981412
   1.13937     -4.981412
   1.07940     -4.964763
   1.01944     -4.915123
   0.95947     -4.834314
   0.89950     -4.724458
   0.83954     -4.589689
   0.77957     -4.433087
   0.71960     -4.258444
   0.65964     -4.089993
   0.59967     -4.053918
   0.53970     -3.973405
   0.47974     -3.847125
   0.41977     -3.687925
   0.35980     -3.511651
   0.29983     -3.334436
   0.23987     -3.167628
   0.17990     -3.023970
   0.11993     -2.912197
   0.05997     -2.841720
   0.00000     -2.817318
 
# Band-Index    9
   0.00000     -2.817302
   0.05997     -2.806608
   0.11993     -2.774255
   0.17990     -2.721272
   0.23987     -2.648828
   0.29983     -2.840564
   0.35980     -3.047235
   0.41977     -3.254775
   0.47974     -3.462705
   0.53970     -3.669567
   0.59967     -3.872790
   0.65964     -4.069885
   0.71960     -4.102318
   0.77957     -4.113281
   0.83954     -4.134749
   0.89950     -4.167564
   0.95947     -4.205443
   1.01944     -4.239873
   1.07940     -4.263454
   1.13937     -4.271568
   1.13937     -4.271568
   1.17399     -4.270190
   1.20861     -4.265189
   1.24324     -4.257258
   1.27786     -4.246895
   1.31248     -4.233597
   1.34710     -4.218177
   1.38172     -4.201011
   1.41635     -4.182488
   1.45097     -4.163681
   1.48559     -4.144880
   1.52021     -4.127130
   1.55483     -4.112361
   1.58946     -4.101137
   1.62408     -4.097676
   1.65870     -4.106806
   1.69332     -4.135453
   1.72794     -4.185325
   1.76257     -4.239064
   1.79719     -4.263970
   1.79719     -4.263970
   1.86643     -4.169919
   1.93568     -4.001370
   2.00492     -3.880947
   2.07416     -3.829634
   2.14341     -3.821069
   2.21265     -3.844428
   2.28189     -3.894832
   2.35114     -3.960281
   2.42038     -4.006941
   2.48963     -3.741509
   2.55887     -3.521477
   2.62811     -3.333612
   2.69736     -3.148049
   2.76660     -2.950244
   2.83584     -2.740716
   2.90509     -2.690847
   2.97433     -2.760295
   3.04358     -2.802692
   3.11282     -2.817302
 
# Band-Index   10
   3.11282     -1.978875
   3.04358     -2.096917
   2.97433     -2.301832
   2.90509     -2.521881
   2.83584     -2.598150
   2.76660     -2.487292
   2.69736     -2.563636
   2.62811     -2.835924
   2.55887     -3.100397
   2.48963     -3.310362
   2.42038     -3.440057
   2.35114     -3.505509
   2.28189     -3.522927
   2.21265     -3.501587
   2.14341     -3.449040
   2.07416     -3.371466
   2.00492     -3.515047
   1.93568     -3.667145
   1.86643     -3.740800
   1.79719     -3.765879
   1.79719     -3.765879
   1.76257     -3.756778
   1.72794     -3.722333
   1.69332     -3.650404
   1.65870     -3.537669
   1.62408     -3.391921
   1.58946     -3.235502
   1.55483     -3.268440
   1.52021     -3.298159
   1.48559     -3.323663
   1.45097     -3.344241
   1.41635     -3.359390
   1.38172     -3.369975
   1.34710     -3.375911
   1.31248     -3.377587
   1.27786     -3.376495
   1.24324     -3.373178
   1.20861     -3.370565
   1.17399     -3.368367
   1.13937     -3.367469
   1.13937     -3.367469
   1.07940     -3.359354
   1.01944     -3.334617
   0.95947     -3.294080
   0.89950     -3.238225
   0.83954     -3.167625
   0.77957     -3.082517
   0.71960     -2.983598
   0.65964     -2.872798
   0.59967     -2.752152
   0.53970     -2.622780
   0.47974     -2.487784
   0.41977     -2.349652
   0.35980     -2.451554
   0.29983     -2.558225
   0.23987     -2.636305
   0.17990     -2.436930
   0.11993     -2.245222
   0.05997     -2.072754
   0.00000     -1.978875
 
# Band-Index   11
   0.00000     -1.709398
   0.05997     -1.726930
   0.11993     -1.778308
   0.17990     -1.857797
   0.23987     -1.960786
   0.29983     -2.081371
   0.35980     -2.212836
   0.41977     -2.332005
   0.47974     -2.201746
   0.53970     -2.064872
   0.59967     -1.926394
   0.65964     -1.789915
   0.71960     -1.776397
   0.77957     -1.858895
   0.83954     -1.928494
   0.89950     -1.984561
   0.95947     -2.027714
   1.01944     -2.058249
   1.07940     -2.076179
   1.13937     -2.081836
   1.13937     -2.081836
   1.17399     -2.080769
   1.20861     -2.077744
   1.24324     -2.073652
   1.27786     -2.069331
   1.31248     -2.065338
   1.34710     -2.064420
   1.38172     -2.082518
   1.41635     -2.271074
   1.45097     -2.464141
   1.48559     -2.659082
   1.52021     -2.852889
   1.55483     -3.043186
   1.58946     -3.224318
   1.62408     -3.200481
   1.65870     -3.165054
   1.69332     -3.131068
   1.72794     -3.102513
   1.76257     -3.082667
   1.79719     -3.075552
   1.79719     -3.075552
   1.86643     -3.105108
   1.93568     -3.181783
   2.00492     -3.277917
   2.07416     -3.293516
   2.14341     -3.048071
   2.21265     -2.802345
   2.28189     -2.570538
   2.35114     -2.368387
   2.42038     -2.219735
   2.48963     -2.152994
   2.55887     -2.173279
   2.62811     -2.255581
   2.69736     -2.368614
   2.76660     -2.310012
   2.83584     -2.094192
   2.90509     -1.924839
   2.97433     -1.804662
   3.04358     -1.732778
   3.11282     -1.709398
 
# Band-Index   12
   3.11282     -1.709366
   3.04358     -1.611565
   2.97433     -1.464877
   2.90509     -1.337138
   2.83584     -1.239480
   2.76660     -1.174512
   2.69736     -1.142194
   2.62811     -1.139306
   2.55887     -1.165550
   2.48963     -1.218518
   2.42038     -1.297155
   2.35114     -1.399373
   2.28189     -1.521126
   2.21265     -1.658347
   2.14341     -1.806269
   2.07416     -1.957922
   2.00492     -2.105069
   1.93568     -2.234962
   1.86643     -2.329609
   1.79719     -2.364791
   1.79719     -2.364791
   1.76257     -2.356570
   1.72794     -2.334224
   1.69332     -2.302490
   1.65870     -2.265822
   1.62408     -2.227277
   1.58946     -2.190197
   1.55483     -2.156753
   1.52021     -2.127594
   1.48559     -2.103879
   1.45097     -2.085916
   1.41635     -2.073771
   1.38172     -2.066872
   1.34710     -1.901041
   1.31248     -1.729486
   1.27786     -1.571324
   1.24324     -1.428883
   1.20861     -1.310101
   1.17399     -1.223999
   1.13937     -1.189184
   1.13937     -1.189184
   1.07940     -1.200043
   1.01944     -1.229528
   0.95947     -1.278805
   0.89950     -1.347598
   0.83954     -1.435632
   0.77957     -1.540640
   0.71960     -1.659867
   0.65964     -1.683924
   0.59967     -1.585112
   0.53970     -1.485626
   0.47974     -1.394594
   0.41977     -1.322408
   0.35980     -1.280072
   0.29983     -1.276144
   0.23987     -1.315121
   0.17990     -1.394115
   0.11993     -1.505300
   0.05997     -1.631116
   0.00000     -1.709366
 
# Band-Index   13
   0.00000     -0.212551
   0.05997     -0.216795
   0.11993     -0.231229
   0.17990     -0.258844
   0.23987     -0.302996
   0.29983     -0.370121
   0.35980     -0.463002
   0.41977     -0.580828
   0.47974     -0.717036
   0.53970     -0.859420
   0.59967     -0.991593
   0.65964     -1.096330
   0.71960     -1.159181
   0.77957     -1.172651
   0.83954     -1.139176
   0.89950     -1.071408
   0.95947     -0.988471
   1.01944     -0.910606
   1.07940     -0.855791
   1.13937     -0.835468
   1.13937     -0.835468
   1.17399     -0.817884
   1.20861     -0.778215
   1.24324     -0.734064
   1.27786     -0.693889
   1.31248     -0.658377
   1.34710     -0.627590
   1.38172     -0.599244
   1.41635     -0.571545
   1.45097     -0.543538
   1.48559     -0.513786
   1.52021     -0.481231
   1.55483     -0.445520
   1.58946     -0.406835
   1.62408     -0.366261
   1.65870     -0.326009
   1.69332     -0.288118
   1.72794     -0.256787
   1.76257     -0.234987
   1.79719     -0.227294
   1.79719     -0.227294
   1.86643     -0.260903
   1.93568     -0.355289
   2.00492     -0.487591
   2.07416     -0.629909
   2.14341     -0.761704
   2.21265     -0.870682
   2.28189     -0.952231
   2.35114     -1.002794
   2.42038     -1.012064
   2.48963     -0.963305
   2.55887     -0.853611
   2.62811     -0.709099
   2.69736     -0.562239
   2.76660     -0.435929
   2.83584     -0.340919
   2.90509     -0.276917
   2.97433     -0.238168
   3.04358     -0.218293
   3.11282     -0.212551
 
# Band-Index   14
   3.11282      2.553914
   3.04358      2.529873
   2.97433      2.468697
   2.90509      2.391725
   2.83584      2.310206
   2.76660      2.152046
   2.69736      2.014881
   2.62811      1.899838
   2.55887      1.805952
   2.48963      1.744585
   2.42038      1.733176
   2.35114      1.781101
   2.28189      1.877918
   2.21265      1.971126
   2.14341      1.977130
   2.07416      1.888610
   2.00492      1.749726
   1.93568      1.603900
   1.86643      1.493012
   1.79719      1.452287
   1.79719      1.452287
   1.76257      1.462246
   1.72794      1.490328
   1.69332      1.533419
   1.65870      1.586989
   1.62408      1.647398
   1.58946      1.710929
   1.55483      1.774258
   1.52021      1.835180
   1.48559      1.891272
   1.45097      1.940652
   1.41635      1.981549
   1.38172      2.012540
   1.34710      2.033333
   1.31248      2.044469
   1.27786      2.046748
   1.24324      2.043552
   1.20861      2.037716
   1.17399      2.032997
   1.13937      2.031255
   1.13937      2.031255
   1.07940      2.027345
   1.01944      2.017467
   0.95947      2.004222
   0.89950      1.993212
   0.83954      1.989024
   0.77957      1.996831
   0.71960      2.019636
   0.65964      2.019577
   0.59967      1.977872
   0.53970      1.962620
   0.47974      1.979713
   0.41977      2.034591
   0.35980      2.127344
   0.29983      2.252790
   0.23987      2.377575
   0.17990      2.430184
   0.11993      2.488890
   0.05997      2.535604
   0.00000      2.553914
 
# Band-Index   15
   0.00000      2.553944
   0.05997      2.572075
   0.11993      2.626678
   0.17990      2.545860
   0.23987      2.398811
   0.29983      2.349048
   0.35980      2.358268
   0.41977      2.351548
   0.47974      2.262844
   0.53970      2.182283
   0.59967      2.113195
   0.65964      2.058824
   0.71960      2.080762
   0.77957      2.155860
   0.83954      2.239225
   0.89950      2.325263
   0.95947      2.406745
   1.01944      2.475918
   1.07940      2.523188
   1.13937      2.540592
   1.13937      2.540592
   1.17399      2.542098
   1.20861      2.547178
   1.24324      2.556825
   1.27786      2.573023
   1.31248      2.597956
   1.34710      2.633019
   1.38172      2.678344
   1.41635      2.733153
   1.45097      2.795845
   1.48559      2.863634
   1.52021      2.934644
   1.55483      3.006429
   1.58946      3.030137
   1.62408      2.976609
   1.65870      2.934445
   1.69332      2.904206
   1.72794      2.883154
   1.76257      2.870894
   1.79719      2.867214
   1.79719      2.867214
   1.86643      2.878943
   1.93568      2.902748
   2.00492      2.921485
   2.07416      2.770154
   2.14341      2.559445
   2.21265      2.415548
   2.28189      2.352080
   2.35114      2.315667
   2.42038      2.280636
   2.48963      2.252045
   2.55887      2.246065
   2.62811      2.277391
   2.69736      2.260278
   2.76660      2.274713
   2.83584      2.321566
   2.90509      2.481077
   2.97433      2.638881
   3.04358      2.579123
   3.11282      2.553944
 
# Band-Index   16
   3.11282      2.795803
   3.04358      2.754358
   2.97433      2.653098
   2.90509      2.656543
   2.83584      2.558705
   2.76660      2.450840
   2.69736      2.349287
   2.62811      2.283151
   2.55887      2.338666
   2.48963      2.421199
   2.42038      2.522131
   2.35114      2.631202
   2.28189      2.737851
   2.21265      2.829257
   2.14341      2.891691
   2.07416      2.921553
   2.00492      2.989254
   1.93568      3.173499
   1.86643      3.292023
   1.79719      3.331311
   1.79719      3.331311
   1.76257      3.322187
   1.72794      3.296332
   1.69332      3.256314
   1.65870      3.204274
   1.62408      3.143809
   1.58946      3.076950
   1.55483      3.094852
   1.52021      3.170610
   1.48559      3.256364
   1.45097      3.350803
   1.41635      3.451524
   1.38172      3.555307
   1.34710      3.656367
   1.31248      3.736590
   1.27786      3.749547
   1.24324      3.721659
   1.20861      3.694335
   1.17399      3.676123
   1.13937      3.669886
   1.13937      3.669886
   1.07940      3.657584
   1.01944      3.623528
   0.95947      3.564451
   0.89950      3.480167
   0.83954      3.368944
   0.77957      3.237032
   0.71960      3.088738
   0.65964      2.931387
   0.59967      2.774262
   0.53970      2.628252
   0.47974      2.502499
   0.41977      2.410072
   0.35980      2.444069
   0.29983      2.535647
   0.23987      2.620330
   0.17990      2.692870
   0.11993      2.675289
   0.05997      2.764727
   0.00000      2.795803
 
# Band-Index   17
   0.00000      2.795804
   0.05997      2.784585
   0.11993      2.749313
   0.17990      2.713875
   0.23987      2.826493
   0.29983      2.955976
   0.35980      3.095146
   0.41977      3.236832
   0.47974      3.375998
   0.53970      3.507255
   0.59967      3.626777
   0.65964      3.734405
   0.71960      3.825824
   0.77957      3.903033
   0.83954      3.966553
   0.89950      4.017020
   0.95947      4.054580
   1.01944      4.080217
   1.07940      4.095312
   1.13937      4.100460
   1.13937      4.100460
   1.17399      4.086289
   1.20861      4.046071
   1.24324      3.985047
   1.27786      3.915862
   1.31248      3.887326
   1.34710      3.926529
   1.38172      3.991600
   1.41635      4.066373
   1.45097      4.145462
   1.48559      4.225739
   1.52021      4.304691
   1.55483      4.379845
   1.58946      4.449011
   1.62408      4.509854
   1.65870      4.561013
   1.69332      4.601764
   1.72794      4.630691
   1.76257      4.647504
   1.79719      4.652992
   1.79719      4.652992
   1.86643      4.633705
   1.93568      4.581264
   2.00492      4.510869
   2.07416      4.436590
   2.14341      4.367270
   2.21265      4.303206
   2.28189      4.233323
   2.35114      4.146252
   2.42038      4.032018
   2.48963      3.886633
   2.55887      3.712510
   2.62811      3.518729
   2.69736      3.315171
   2.76660      3.115886
   2.83584      2.931082
   2.90509      2.773294
   2.97433      2.732688
   3.04358      2.780614
   3.11282      2.795804
 
# Band-Index   18
   3.11282      5.057392
   3.04358      5.083632
   2.97433      5.156220
   2.90509      5.264562
   2.83584      5.402461
   2.76660      5.568264
   2.69736      5.761716
   2.62811      5.982723
   2.55887      6.230262
   2.48963      6.502230
   2.42038      6.794300
   2.35114      7.095879
   2.28189      7.374253
   2.21265      7.504072
   2.14341      7.387264
   2.07416      7.212315
   2.00492      7.071628
   1.93568      7.002706
   1.86643      7.015882
   1.79719      7.057386
   1.79719      7.057386
   1.76257      7.035095
   1.72794      6.975604
   1.69332      6.899477
   1.65870      6.816040
   1.62408      6.732629
   1.58946      6.648661
   1.55483      6.566717
   1.52021      6.488254
   1.48559      6.413132
   1.45097      6.341964
   1.41635      6.274848
   1.38172      6.212211
   1.34710      6.155274
   1.31248      6.105174
   1.27786      6.060930
   1.24324      6.025207
   1.20861      5.997636
   1.17399      5.980946
   1.13937      5.975996
   1.13937      5.975996
   1.07940      6.030541
   1.01944      6.190098
   0.95947      6.432097
   0.89950      6.725050
   0.83954      6.989039
   0.77957      6.988816
   0.71960      6.801062
   0.65964      6.580958
   0.59967      6.359445
   0.53970      6.146400
   0.47974      5.946742
   0.41977      5.763383
   0.35980      5.597994
   0.29983      5.451343
   0.23987      5.324080
   0.17990      5.216976
   0.11993      5.132843
   0.05997      5.077189
   0.00000      5.057392
 
# Band-Index   19
   0.00000      5.623799
   0.05997      5.637262
   0.11993      5.677477
   0.17990      5.743900
   0.23987      5.835828
   0.29983      5.951888
   0.35980      6.090901
   0.41977      6.251342
   0.47974      6.430839
   0.53970      6.625962
   0.59967      6.831598
   0.65964      7.039792
   0.71960      7.237789
   0.77957      7.405595
   0.83954      7.460395
   0.89950      7.584105
   0.95947      7.654952
   1.01944      7.698606
   1.07940      7.732024
   1.13937      7.745401
   1.13937      7.745401
   1.17399      7.769075
   1.20861      7.838952
   1.24324      7.952044
   1.27786      8.099729
   1.31248      8.283966
   1.34710      8.488912
   1.38172      8.666280
   1.41635      8.811119
   1.45097      8.917335
   1.48559      8.867553
   1.52021      8.686587
   1.55483      8.478576
   1.58946      8.270590
   1.62408      8.068041
   1.65870      7.879986
   1.69332      7.712735
   1.72794      7.570806
   1.76257      7.472169
   1.79719      7.435336
   1.79719      7.435336
   1.86643      7.538538
   1.93568      7.723381
   2.00492      7.923363
   2.07416      8.092358
   2.14341      8.128882
   2.21265      8.048716
   2.28189      7.817082
   2.35114      7.516851
   2.42038      7.226504
   2.48963      6.949828
   2.55887      6.691253
   2.62811      6.454481
   2.69736      6.242717
   2.76660      6.058910
   2.83584      5.905240
   2.90509      5.783477
   2.97433      5.695296
   3.04358      5.641764
   3.11282      5.623799
 
# Band-Index   20
   3.11282      6.019845
   3.04358      6.082107
   2.97433      6.261192
   2.90509      6.535222
   2.83584      6.865124
   2.76660      7.192014
   2.69736      7.470856
   2.62811      7.718404
   2.55887      7.962403
   2.48963      8.214469
   2.42038      8.475212
   2.35114      8.387711
   2.28189      8.145864
   2.21265      8.122039
   2.14341      8.424386
   2.07416      8.717940
   2.00492      8.991428
   1.93568      9.224513
   1.86643      9.383339
   1.79719      9.435449
   1.79719      9.435449
   1.76257      9.424139
   1.72794      9.393438
   1.69332      9.347853
   1.65870      9.293730
   1.62408      9.236234
   1.58946      9.178712
   1.55483      9.121581
   1.52021      9.067591
   1.48559      9.016614
   1.45097      8.967314
   1.41635      8.902030
   1.38172      8.714480
   1.34710      8.520850
   1.31248      8.385735
   1.27786      8.266892
   1.24324      8.171232
   1.20861      8.100445
   1.17399      8.057082
   1.13937      8.042874
   1.13937      8.042874
   1.07940      8.003129
   1.01944      7.899695
   0.95947      7.751400
   0.89950      7.602951
   0.83954      7.526579
   0.77957      7.592638
   0.71960      7.855335
   0.65964      7.947356
   0.59967      7.860396
   0.53970      7.727913
   0.47974      7.577107
   0.41977      7.407602
   0.35980      7.206327
   0.29983      6.958149
   0.23987      6.679455
   0.17990      6.414732
   0.11993      6.202703
   0.05997      6.066623
   0.00000      6.019845
 
# Band-Index   21
   0.00000      7.122939
   0.05997      7.139087
   0.11993      7.187655
   0.17990      7.270301
   0.23987      7.394143
   0.29983      7.574353
   0.35980      7.828766
   0.41977      8.140826
   0.47974      8.441257
   0.53970      8.621673
   0.59967      8.581521
   0.65964      8.407757
   0.71960      8.338557
   0.77957      8.426170
   0.83954      8.434827
   0.89950      8.517426
   0.95947      8.626243
   1.01944      8.717680
   1.07940      8.769360
   1.13937      8.785537
   1.13937      8.785537
   1.17399      8.787969
   1.20861      8.795386
   1.24324      8.807631
   1.27786      8.824739
   1.31248      8.848114
   1.34710      8.875715
   1.38172      8.913605
   1.41635      9.007725
   1.45097      9.238058
   1.48559      9.272801
   1.52021      9.389222
   1.55483      9.529736
   1.58946      9.672664
   1.62408      9.811315
   1.65870      9.942134
   1.69332     10.061648
   1.72794     10.161360
   1.76257     10.232204
   1.79719     10.258647
   1.79719     10.258647
   1.86643     10.143268
   1.93568      9.849956
   2.00492      9.492801
   2.07416      9.180014
   2.14341      9.037146
   2.21265      9.050732
   2.28189      8.958097
   2.35114      8.735933
   2.42038      8.652393
   2.48963      8.872504
   2.55887      8.897766
   2.62811      8.560437
   2.69736      8.133755
   2.76660      7.760515
   2.83584      7.494391
   2.90509      7.321224
   2.97433      7.209416
   3.04358      7.144490
   3.11282      7.122939
 
# Band-Index   22
   3.11282      8.877004
   3.04358      8.943830
   2.97433      9.132091
   2.90509      9.389445
   2.83584      9.521525
   2.76660      9.630437
   2.69736      9.677345
   2.62811      9.515851
   2.55887      9.445808
   2.48963      9.489095
   2.42038      9.390585
   2.35114      9.356420
   2.28189      9.401472
   2.21265      9.525023
   2.14341      9.724155
   2.07416      9.992720
   2.00492     10.308288
   1.93568     10.634496
   1.86643     10.879820
   1.79719     10.956386
   1.79719     10.956387
   1.76257     10.940583
   1.72794     10.896521
   1.69332     10.825145
   1.65870     10.712632
   1.62408     10.529646
   1.58946     10.291351
   1.55483     10.031436
   1.52021      9.764335
   1.48559      9.497595
   1.45097      9.279995
   1.41635      9.427231
   1.38172      9.570085
   1.34710      9.636981
   1.31248      9.626299
   1.27786      9.587056
   1.24324      9.548068
   1.20861      9.516182
   1.17399      9.497059
   1.13937      9.492122
   1.13937      9.492122
   1.07940      9.456489
   1.01944      9.317007
   0.95947      9.087395
   0.89950      8.843611
   0.83954      8.625548
   0.77957      8.447866
   0.71960      8.509438
   0.65964      8.670049
   0.59967      8.888286
   0.53970      9.138998
   0.47974      9.385929
   0.41977      9.560460
   0.35980      9.595586
   0.29983      9.539120
   0.23987      9.453760
   0.17990      9.286115
   0.11993      9.070637
   0.05997      8.926967
   0.00000      8.877004
 
# Band-Index   23
   0.00000      9.309971
   0.05997      9.321572
   0.11993      9.356791
   0.17990      9.421533
   0.23987      9.601556
   0.29983      9.865121
   0.35980      9.766046
   0.41977      9.594395
   0.47974      9.450132
   0.53970      9.380757
   0.59967      9.444218
   0.65964      9.581376
   0.71960      9.732856
   0.77957      9.880538
   0.83954     10.007361
   0.89950     10.082712
   0.95947     10.094600
   1.01944     10.097331
   1.07940     10.195435
   1.13937     10.199249
   1.13937     10.199249
   1.17399     10.202548
   1.20861     10.212605
   1.24324     10.229070
   1.27786     10.251859
   1.31248     10.240366
   1.34710     10.143739
   1.38172     10.115914
   1.41635     10.184288
   1.45097     10.303163
   1.48559     10.448836
   1.52021     10.579538
   1.55483     10.649313
   1.58946     10.727618
   1.62408     10.823384
   1.65870     10.960909
   1.69332     11.148165
   1.72794     11.318347
   1.76257     11.367982
   1.79719     11.382262
   1.79719     11.381633
   1.86643     11.323091
   1.93568     11.084113
   2.00492     10.755246
   2.07416     10.417784
   2.14341     10.121385
   2.21265      9.959894
   2.28189     10.045507
   2.35114     10.167387
   2.42038     10.015636
   2.48963      9.687836
   2.55887      9.627945
   2.62811      9.739836
   2.69736      9.724222
   2.76660      9.863618
   2.83584      9.778500
   2.90509      9.477065
   2.97433      9.372800
   3.04358      9.325486
   3.11282      9.309971
 
# Band-Index   24
   3.11282     10.750500
   3.04358     10.712298
   2.97433     10.469952
   2.90509     10.260823
   2.83584     10.054381
   2.76660     10.083344
   2.69736     10.213498
   2.62811     10.193105
   2.55887     10.232511
   2.48963     10.328617
   2.42038     10.439543
   2.35114     10.563495
   2.28189     10.714565
   2.21265     10.897397
   2.14341     11.097201
   2.07416     11.280966
   2.00492     11.389841
   1.93568     11.412584
   1.86643     11.451402
   1.79719     11.519100
   1.79719     11.522593
   1.76257     11.470083
   1.72794     11.331489
   1.69332     11.235162
   1.65870     11.130742
   1.62408     11.014275
   1.58946     10.888241
   1.55483     10.751243
   1.52021     10.602913
   1.48559     10.515805
   1.45097     10.457600
   1.41635     10.404860
   1.38172     10.357730
   1.34710     10.316370
   1.31248     10.281138
   1.27786     10.316207
   1.24324     10.333668
   1.20861     10.328642
   1.17399     10.322059
   1.13937     10.319570
   1.13937     10.319569
   1.07940     10.196993
   1.01944     10.206580
   0.95947     10.251693
   0.89950     10.333961
   0.83954     10.429568
   0.77957     10.508734
   0.71960     10.539635
   0.65964     10.504706
   0.59967     10.414235
   0.53970     10.296701
   0.47974     10.184706
   0.41977     10.110629
   0.35980     10.045889
   0.29983      9.951022
   0.23987     10.145721
   0.17990     10.337209
   0.11993     10.522339
   0.05997     10.677827
   0.00000     10.750510
